File: data/pyprice/TGA_price.csv
Date,High,Low,Open,Close,Volume,Adj Close
2016-02-08,1.26,1.18,1.23,1.23,147800.0,1.16343
2016-02-10,1.25,1.18,1.21,1.23,86700.0,1.16343
2016-02-12,1.32,1.19,1.23,1.23,169200.0,1.16343
2016-02-17,1.42,1.25,1.25,1.39,167600.0,1.31477
2016-02-19,1.41,1.33,1.38,1.38,52100.0,1.30531
2016-02-23,1.42,1.3,1.42,1.31,89000.0,1.2391
2016-02-25,1.5,1.34,1.35,1.46,108100.0,1.38098
2016-02-29,1.5,1.42,1.44,1.44,128600.0,1.36207
2016-03-02,1.54,1.46,1.46,1.5,111700.0,1.41882
2016-03-04,1.75,1.64,1.64,1.66,194400.0,1.57016
2016-03-08,1.84,1.7,1.84,1.72,204800.0,1.62691
2016-03-10,1.71,1.57,1.57,1.69,130400.0,1.59854
2016-03-14,1.74,1.65,1.69,1.69,78100.0,1.59854
2016-03-16,1.67,1.6,1.64,1.66,172800.0,1.57016
2016-03-18,1.74,1.64,1.72,1.69,138000.0,1.59854
2016-03-22,1.72,1.65,1.69,1.65,122200.0,1.5607
2016-03-24,1.67,1.6,1.63,1.67,60300.0,1.57962
2016-03-29,1.63,1.59,1.62,1.63,113400.0,1.54178
2016-03-31,1.72,1.65,1.7,1.66,70300.0,1.57016
2016-04-04,1.7,1.66,1.7,1.68,57900.0,1.58908
2016-04-06,1.7,1.63,1.65,1.66,86100.0,1.57016
2016-04-08,1.77,1.69,1.71,1.75,112700.0,1.65529
2016-04-12,1.82,1.74,1.74,1.81,257600.0,1.71204
2016-04-14,1.8,1.75,1.8,1.76,48400.0,1.66475
2016-04-18,1.8,1.68,1.69,1.8,106800.0,1.70258
2016-04-20,2.02,1.89,1.9,1.93,186800.0,1.82555
2016-04-22,1.99,1.88,1.88,1.92,51900.0,1.81609
2016-04-26,2.01,1.87,1.95,2.01,193100.0,1.90122
2016-04-28,2.04,1.95,1.99,1.98,118000.0,1.87284
2016-05-02,1.95,1.89,1.92,1.94,45900.0,1.83501
2016-05-04,1.92,1.81,1.91,1.84,166600.0,1.74042
2016-05-06,1.94,1.79,1.86,1.94,176200.0,1.83501
2016-05-10,1.95,1.86,1.87,1.94,133300.0,1.83501
2016-05-12,1.99,1.91,1.91,1.97,162700.0,1.86338
2016-05-16,1.97,1.92,1.97,1.94,105000.0,1.83501
2016-05-18,1.96,1.8,1.92,1.86,74400.0,1.75934
2016-05-20,1.82,1.7,1.82,1.75,263200.0,1.65529
2016-05-24,1.8,1.7,1.78,1.7,100800.0,1.608
2016-05-26,1.78,1.74,1.77,1.78,45600.0,1.68367
2016-05-31,1.73,1.69,1.71,1.69,36300.0,1.59854
2016-06-02,1.7,1.66,1.7,1.68,81600.0,1.58908
2016-06-06,1.76,1.7,1.75,1.73,82300.0,1.63637
2016-06-08,1.82,1.75,1.77,1.81,149900.0,1.71204
2016-06-10,1.85,1.75,1.82,1.76,122600.0,1.66475
2016-06-14,1.75,1.65,1.72,1.66,92800.0,1.57016
2016-06-16,1.62,1.55,1.61,1.6,151300.0,1.51341
2016-06-20,1.7,1.65,1.68,1.66,23200.0,1.57016
2016-06-22,1.89,1.72,1.72,1.83,116100.0,1.73096
2016-06-24,1.9,1.79,1.79,1.81,53000.0,1.71204
2016-06-28,1.92,1.78,1.78,1.86,31200.0,1.75934
2016-06-30,1.88,1.75,1.84,1.83,94400.0,1.73096
2016-07-05,1.83,1.75,1.82,1.8,60300.0,1.70258
2016-07-07,1.85,1.72,1.85,1.74,27000.0,1.64583
2016-07-11,1.8,1.69,1.8,1.69,41400.0,1.59854
2016-07-13,1.81,1.73,1.79,1.75,17300.0,1.65529
2016-07-15,1.82,1.74,1.82,1.77,53800.0,1.67421
2016-07-19,1.81,1.73,1.79,1.75,16400.0,1.65529
2016-07-21,1.75,1.72,1.72,1.74,16800.0,1.64583
2016-07-25,1.73,1.6,1.7,1.62,67600.0,1.53232
2016-07-27,1.72,1.6,1.72,1.63,31100.0,1.54178
2016-07-29,1.65,1.61,1.64,1.63,16700.0,1.54178
2016-08-02,1.67,1.6,1.67,1.61,68700.0,1.52287
2016-08-04,1.65,1.55,1.56,1.61,53900.0,1.52287
2016-08-08,1.68,1.58,1.63,1.61,79400.0,1.52287
2016-08-10,1.63,1.59,1.62,1.61,103500.0,1.52287
2016-08-12,2.03,1.87,2.0,1.92,148800.0,1.81609
2016-08-16,1.96,1.92,1.92,1.92,35600.0,1.81609
2016-08-18,2.25,1.98,2.01,2.1,388300.0,1.98635
2016-08-22,1.99,1.87,1.99,1.89,133000.0,1.78771
2016-08-24,2.03,1.9,1.95,1.91,99200.0,1.80663
2016-08-26,1.92,1.82,1.9,1.83,61500.0,1.73096
2016-08-30,1.9,1.81,1.81,1.87,43900.0,1.76879
2016-09-01,1.86,1.8,1.85,1.86,50700.0,1.75934
2016-09-06,1.96,1.87,1.93,1.94,39300.0,1.83501
2016-09-08,1.99,1.96,1.98,1.97,90600.0,1.86338
2016-09-12,2.16,2.08,2.16,2.09,62500.0,1.97689
2016-09-14,2.02,1.84,1.99,1.89,189400.0,1.78771
2016-09-16,1.95,1.88,1.93,1.93,58400.0,1.82555
2016-09-20,1.99,1.92,1.99,1.96,48100.0,1.85392
2016-09-22,2.1,1.92,2.02,1.92,98300.0,1.81609
2016-09-26,1.94,1.85,1.92,1.87,120300.0,1.76879
2016-09-28,1.98,1.78,1.82,1.94,70800.0,1.83501
2016-09-30,2.01,1.94,2.0,1.97,211300.0,1.86338
2016-10-04,2.06,1.96,1.97,2.0,111000.0,1.89176
2016-10-06,2.09,2.02,2.07,2.08,62800.0,1.96743
2016-10-10,2.15,2.04,2.06,2.12,53700.0,2.00526
2016-10-12,2.12,2.05,2.07,2.08,15900.0,1.96743
2016-10-14,2.16,2.08,2.13,2.13,93600.0,2.01472
2016-10-18,2.12,2.05,2.1,2.07,51800.0,1.95797
2016-10-20,2.09,2.04,2.05,2.05,17100.0,1.93905
2016-10-24,2.08,1.91,2.02,1.95,95900.0,1.84447
2016-10-26,1.92,1.83,1.92,1.86,134100.0,1.75934
2016-10-28,1.88,1.83,1.85,1.84,19000.0,1.74042
2016-11-01,1.86,1.78,1.83,1.81,91600.0,1.71204
2016-11-03,1.84,1.77,1.83,1.82,19300.0,1.7215
2016-11-07,1.89,1.78,1.8,1.81,42200.0,1.71204
2016-11-09,1.84,1.77,1.78,1.84,53100.0,1.74042
2016-11-11,1.82,1.75,1.79,1.78,58400.0,1.68367
2016-11-15,1.86,1.79,1.79,1.81,33000.0,1.71204
2016-11-17,1.84,1.76,1.79,1.76,76800.0,1.66475
2016-11-21,1.84,1.8,1.83,1.83,65400.0,1.73096
2016-11-23,1.82,1.73,1.77,1.78,47500.0,1.68367
2016-11-28,1.8,1.76,1.78,1.77,17500.0,1.67421
2016-11-30,1.82,1.73,1.78,1.75,325600.0,1.65529
2016-12-02,1.96,1.84,1.95,1.89,104500.0,1.78771
2016-12-06,1.8,1.62,1.8,1.72,414700.0,1.62691
2016-12-08,1.78,1.7,1.7,1.73,102800.0,1.63637
2016-12-12,1.89,1.76,1.78,1.77,282800.0,1.67421
2016-12-14,1.85,1.71,1.85,1.71,180400.0,1.61745
2016-12-16,1.73,1.64,1.67,1.73,129000.0,1.63637
2016-12-20,1.72,1.65,1.66,1.7,191500.0,1.608
2016-12-22,1.71,1.68,1.71,1.69,62900.0,1.59854
2016-12-27,1.72,1.66,1.67,1.72,57000.0,1.62691
2016-12-29,1.72,1.68,1.69,1.68,56600.0,1.58908
2017-01-03,1.83,1.69,1.73,1.83,255000.0,1.73096
2017-01-05,1.89,1.81,1.86,1.84,143100.0,1.74042
2017-01-09,1.8,1.73,1.8,1.74,70000.0,1.64583
2017-01-11,1.85,1.75,1.78,1.82,113900.0,1.7215
2017-01-13,1.79,1.75,1.75,1.78,42200.0,1.68367
2017-01-18,1.78,1.72,1.78,1.72,35400.0,1.62691
2017-01-20,1.76,1.72,1.74,1.74,48900.0,1.64583
2017-01-24,1.76,1.71,1.71,1.75,251400.0,1.65529
2017-01-26,1.8,1.74,1.74,1.78,86100.0,1.68367
2017-01-30,1.73,1.64,1.73,1.66,193500.0,1.57016
2017-02-01,1.76,1.69,1.73,1.72,106900.0,1.62691
2017-02-03,1.78,1.72,1.73,1.72,52500.0,1.62691
2017-02-07,1.74,1.67,1.69,1.7,60400.0,1.608
2017-02-09,1.67,1.61,1.67,1.64,227900.0,1.55124
2017-02-13,1.85,1.69,1.69,1.84,93600.0,1.74042
2017-02-15,1.81,1.72,1.8,1.75,101000.0,1.65529
2017-02-17,1.77,1.72,1.73,1.74,81400.0,1.64583
2017-02-22,1.78,1.7,1.77,1.7,118000.0,1.608
2017-02-24,1.7,1.64,1.68,1.65,153400.0,1.5607
2017-02-28,1.69,1.61,1.65,1.63,106200.0,1.54178
2017-03-02,1.68,1.63,1.67,1.65,84800.0,1.5607
2017-03-06,1.64,1.58,1.6,1.59,80500.0,1.50395
2017-03-08,1.61,1.55,1.58,1.59,230600.0,1.50395
2017-03-10,1.64,1.59,1.6,1.64,47000.0,1.55124
2017-03-14,1.6,1.53,1.58,1.55,215700.0,1.46611
2017-03-16,1.59,1.5,1.55,1.54,119300.0,1.45665
2017-03-20,1.59,1.49,1.59,1.57,128100.0,1.48503
2017-03-22,1.53,1.48,1.53,1.5,144900.0,1.41882
2017-03-24,1.55,1.5,1.54,1.5,66400.0,1.41882
2017-03-28,1.56,1.49,1.5,1.54,60000.0,1.45665
2017-03-30,1.63,1.57,1.63,1.59,43200.0,1.50395
2017-04-03,1.58,1.54,1.55,1.57,100200.0,1.48503
2017-04-05,1.62,1.56,1.6,1.58,47400.0,1.49449
2017-04-07,1.6,1.57,1.6,1.58,25700.0,1.49449
2017-04-11,1.64,1.6,1.62,1.62,75500.0,1.53232
2017-04-13,1.65,1.57,1.65,1.57,58800.0,1.48503
2017-04-18,1.55,1.5,1.5,1.51,19700.0,1.42828
2017-04-20,1.58,1.51,1.56,1.53,35700.0,1.4472
2017-04-24,1.54,1.49,1.53,1.49,32200.0,1.40936
2017-04-26,1.52,1.48,1.52,1.5,51900.0,1.41882
2017-04-28,1.51,1.46,1.51,1.46,80400.0,1.38098
2017-05-02,1.49,1.45,1.48,1.45,54600.0,1.37153
2017-05-04,1.44,1.37,1.42,1.38,134900.0,1.30531
2017-05-08,1.51,1.39,1.39,1.47,101100.0,1.39044
2017-05-10,1.49,1.43,1.43,1.46,82400.0,1.38098
2017-05-12,1.54,1.48,1.52,1.5,84800.0,1.41882
2017-05-16,1.65,1.59,1.6,1.62,59600.0,1.53232
2017-05-18,1.6,1.53,1.54,1.6,34100.0,1.51341
2017-05-22,1.65,1.57,1.65,1.6,43200.0,1.51341
2017-05-24,1.59,1.55,1.56,1.58,81500.0,1.49449
2017-05-26,1.52,1.48,1.5,1.49,43300.0,1.40936
2017-05-31,1.46,1.4,1.44,1.44,144700.0,1.36207
2017-06-02,1.45,1.41,1.42,1.44,47300.0,1.36207
2017-06-06,1.43,1.38,1.4,1.41,151700.0,1.33369
2017-06-08,1.4,1.35,1.39,1.36,110700.0,1.2864
2017-06-12,1.4,1.33,1.4,1.33,104000.0,1.25802
2017-06-14,1.35,1.24,1.34,1.27,143700.0,1.20127
2017-06-16,1.3,1.21,1.23,1.28,106100.0,1.21073
2017-06-20,1.33,1.25,1.32,1.31,70100.0,1.2391
2017-06-22,1.29,1.25,1.27,1.28,28300.0,1.21073
2017-06-26,1.33,1.27,1.33,1.32,18900.0,1.24856
2017-06-28,1.3,1.27,1.27,1.29,15200.0,1.22018
2017-06-30,1.35,1.29,1.35,1.34,10200.0,1.26748
2017-07-05,1.33,1.3,1.33,1.31,3700.0,1.2391
2017-07-07,1.32,1.28,1.32,1.29,46300.0,1.22018
2017-07-11,1.29,1.26,1.27,1.27,24700.0,1.20127
2017-07-13,1.35,1.28,1.29,1.33,60100.0,1.25802
2017-07-17,1.35,1.3,1.3,1.34,20100.0,1.26748
2017-07-19,1.38,1.35,1.36,1.36,126500.0,1.2864
2017-07-21,1.37,1.34,1.34,1.36,144300.0,1.2864
2017-07-25,1.36,1.34,1.35,1.35,41000.0,1.27694
2017-07-27,1.36,1.33,1.34,1.33,28400.0,1.25802
2017-07-31,1.39,1.35,1.36,1.35,10300.0,1.27694
2017-08-02,1.34,1.3,1.34,1.32,46300.0,1.24856
2017-08-04,1.35,1.27,1.27,1.28,36400.0,1.21073
2017-08-08,1.28,1.23,1.25,1.24,65800.0,1.17289
2017-08-10,1.28,1.17,1.28,1.25,115800.0,1.18235
2017-08-14,1.21,1.16,1.2,1.18,100500.0,1.11614
2017-08-16,1.25,1.21,1.22,1.23,106800.0,1.16343
2017-08-18,1.22,1.19,1.19,1.19,44200.0,1.1256
2017-08-22,1.24,1.17,1.2,1.2,72600.0,1.13506
2017-08-24,1.31,1.22,1.24,1.31,34800.0,1.2391
2017-08-28,1.28,1.22,1.25,1.25,28500.0,1.18235
2017-08-30,1.28,1.25,1.28,1.26,23600.0,1.19181
2017-09-01,1.36,1.29,1.35,1.29,18600.0,1.22018
2017-09-06,1.33,1.28,1.3,1.28,34700.0,1.21073
2017-09-08,1.29,1.25,1.28,1.25,46700.0,1.18235
2017-09-12,1.23,1.16,1.23,1.17,127800.0,1.10668
2017-09-14,1.26,1.23,1.25,1.24,25800.0,1.17289
2017-09-18,1.17,1.09,1.1,1.12,289100.0,1.05939
2017-09-20,1.18,1.14,1.15,1.16,129100.0,1.09722
2017-09-22,1.26,1.22,1.23,1.26,56600.0,1.19181
2017-09-26,1.33,1.27,1.27,1.31,96100.0,1.2391
2017-09-28,1.39,1.35,1.35,1.38,64200.0,1.30531
2017-10-02,1.44,1.4,1.41,1.42,24800.0,1.34315
2017-10-04,1.45,1.4,1.42,1.44,47700.0,1.36207
2017-10-06,1.52,1.45,1.45,1.51,182500.0,1.42828
2017-10-10,1.6,1.51,1.51,1.56,137200.0,1.47557
2017-10-12,1.64,1.58,1.64,1.62,82700.0,1.53232
2017-10-16,1.65,1.58,1.59,1.6,41200.0,1.51341
2017-10-18,1.59,1.54,1.57,1.59,46000.0,1.50395
2017-10-20,1.59,1.53,1.58,1.58,28900.0,1.49449
2017-10-24,1.59,1.53,1.53,1.57,41000.0,1.48503
2017-10-26,1.58,1.5,1.57,1.55,49900.0,1.46611
2017-10-30,1.7,1.58,1.6,1.66,101600.0,1.57016
2017-11-01,1.77,1.68,1.68,1.77,151400.0,1.67421
2017-11-03,1.69,1.43,1.64,1.48,631000.0,1.3999
2017-11-07,1.57,1.48,1.53,1.57,56400.0,1.48503
2017-11-09,1.55,1.49,1.55,1.51,42800.0,1.42828
2017-11-13,1.52,1.46,1.52,1.5,59200.0,1.41882
2017-11-15,1.5,1.43,1.5,1.48,49300.0,1.3999
2017-11-17,1.5,1.44,1.44,1.48,21400.0,1.3999
2017-11-21,1.49,1.46,1.49,1.48,27200.0,1.3999
2017-11-24,1.5,1.46,1.46,1.5,2700.0,1.41882
2017-11-28,1.48,1.44,1.46,1.48,21700.0,1.3999
2017-11-30,1.46,1.43,1.44,1.45,99100.0,1.37153
2017-12-04,1.47,1.42,1.46,1.45,101100.0,1.37153
2017-12-06,1.44,1.36,1.44,1.37,171100.0,1.29586
2017-12-08,1.38,1.33,1.38,1.34,99100.0,1.26748
2017-12-12,1.4,1.36,1.36,1.38,39700.0,1.30531
2017-12-14,1.34,1.31,1.34,1.33,102200.0,1.25802
2017-12-18,1.33,1.26,1.32,1.28,122200.0,1.21073
2017-12-20,1.34,1.27,1.3,1.29,103800.0,1.22018
2017-12-22,1.35,1.3,1.33,1.34,222000.0,1.26748
2017-12-27,1.4,1.31,1.35,1.39,175100.0,1.31477
2017-12-29,1.44,1.41,1.43,1.44,57600.0,1.36207
2018-01-03,1.46,1.36,1.45,1.44,94600.0,1.36207
2018-01-05,1.44,1.41,1.44,1.44,98900.0,1.36207
2018-01-09,1.47,1.43,1.45,1.45,135300.0,1.37153
2018-01-11,1.5,1.44,1.44,1.48,315000.0,1.3999
2018-01-16,1.49,1.43,1.49,1.46,91300.0,1.38098
2018-01-18,1.49,1.44,1.45,1.47,59200.0,1.39044
2018-01-22,1.49,1.46,1.47,1.47,48300.0,1.39044
2018-01-24,1.48,1.45,1.47,1.46,56500.0,1.38098
2018-01-26,1.51,1.48,1.48,1.49,77600.0,1.40936
2018-01-30,1.49,1.38,1.48,1.39,180500.0,1.31477
2018-02-01,1.47,1.44,1.47,1.46,58200.0,1.38098
2018-02-05,1.43,1.35,1.43,1.41,105800.0,1.33369
2018-02-07,1.47,1.37,1.4,1.37,175900.0,1.29586
2018-02-09,1.32,1.24,1.32,1.27,83100.0,1.20127
2018-02-13,1.34,1.31,1.31,1.33,81000.0,1.25802
2018-02-15,1.35,1.3,1.35,1.3,52800.0,1.22964
2018-02-20,1.33,1.31,1.31,1.33,28500.0,1.25802
2018-02-22,1.34,1.28,1.3,1.3,77300.0,1.22964
2018-02-26,1.36,1.31,1.34,1.34,71900.0,1.26748
2018-02-28,1.32,1.26,1.3,1.3,70400.0,1.22964
2018-03-02,1.32,1.2,1.28,1.25,79700.0,1.18235
2018-03-06,1.3,1.27,1.3,1.28,45100.0,1.21073
2018-03-08,1.31,1.27,1.31,1.28,160600.0,1.21073
2018-03-12,1.32,1.28,1.28,1.31,47400.0,1.2391
2018-03-14,1.34,1.32,1.34,1.33,21900.0,1.25802
2018-03-16,1.35,1.32,1.33,1.33,26400.0,1.25802
2018-03-20,1.36,1.33,1.33,1.36,50400.0,1.2864
2018-03-22,1.45,1.41,1.41,1.45,23900.0,1.37153
2018-03-26,1.46,1.38,1.46,1.39,19900.0,1.31477
2018-03-28,1.35,1.31,1.33,1.32,39400.0,1.24856
2018-04-02,1.34,1.31,1.33,1.32,23700.0,1.24856
2018-04-04,1.32,1.3,1.32,1.32,11000.0,1.24856
2018-04-06,1.29,1.26,1.27,1.29,78400.0,1.22018
2018-04-10,1.33,1.28,1.28,1.3,104300.0,1.22964
2018-04-12,1.36,1.3,1.31,1.36,69900.0,1.2864
2018-04-16,1.4,1.35,1.35,1.4,42200.0,1.32423
2018-04-18,1.46,1.39,1.4,1.39,149300.0,1.31477
2018-04-20,1.61,1.48,1.48,1.61,147800.0,1.52287
2018-04-24,1.63,1.55,1.56,1.58,270200.0,1.49449
2018-04-26,1.68,1.62,1.64,1.63,64400.0,1.54178
2018-04-30,1.8,1.67,1.71,1.8,264600.0,1.70258
2018-05-02,1.93,1.83,1.84,1.87,179300.0,1.76879
2018-05-04,1.94,1.84,1.9,1.87,162100.0,1.76879
2018-05-08,2.05,1.91,1.96,1.99,303100.0,1.8823
2018-05-10,2.14,1.98,2.14,2.0,285000.0,1.89176
2018-05-14,1.94,1.86,1.88,1.92,249200.0,1.81609
2018-05-16,2.04,1.93,1.96,1.96,295000.0,1.85392
2018-05-18,2.27,2.06,2.17,2.23,529700.0,2.10931
2018-05-22,2.75,2.19,2.7,2.24,1550600.0,2.11877
2018-05-24,2.45,2.29,2.4,2.31,392500.0,2.18498
2018-05-29,2.32,2.13,2.24,2.29,290200.0,2.16606
2018-05-31,2.55,2.46,2.49,2.54,363700.0,2.40253
2018-06-04,2.52,2.37,2.47,2.41,431700.0,2.27957
2018-06-06,2.47,2.34,2.37,2.46,266000.0,2.32686
2018-06-08,2.47,2.38,2.45,2.46,189400.0,2.32686
2018-06-12,2.48,2.35,2.35,2.39,291300.0,2.26065
2018-06-14,2.47,2.31,2.42,2.32,246600.0,2.19444
2018-06-18,2.38,2.23,2.23,2.33,253700.0,2.2039
2018-06-20,2.43,2.35,2.4,2.36,212300.0,2.23228
2018-06-22,2.47,2.3,2.34,2.39,528300.0,2.26065
2018-06-26,2.48,2.38,2.43,2.44,511500.0,2.30795
2018-06-28,2.84,2.65,2.65,2.72,793100.0,2.57279
2018-07-02,2.76,2.63,2.76,2.73,303400.0,2.58225
2018-07-05,2.93,2.8,2.9,2.9,784100.0,2.74305
2018-07-09,3.3,2.95,2.98,3.29,1352500.0,3.11194
2018-07-11,3.92,3.33,3.4,3.76,2036600.0,3.55651
2018-07-13,4.13,3.76,3.77,4.05,1783500.0,3.83081
2018-07-17,3.74,3.52,3.74,3.53,1012100.0,3.33895
2018-07-19,3.7,3.56,3.57,3.6,753100.0,3.40517
2018-07-23,3.5,3.36,3.45,3.42,384500.0,3.23491
2018-07-25,3.46,3.31,3.37,3.37,361400.0,3.18761
2018-07-27,3.36,3.14,3.36,3.18,540200.0,3.0079
2018-07-31,3.3,3.08,3.14,3.24,421700.0,3.06465
2018-08-02,3.27,3.12,3.23,3.16,247800.0,2.98898
2018-08-06,3.3,3.07,3.2,3.09,430400.0,2.92277
2018-08-08,3.24,3.16,3.17,3.21,418900.0,3.03627
2018-08-10,3.23,3.14,3.2,3.19,363500.0,3.01736
2018-08-14,3.5,2.95,3.19,3.14,2481700.0,2.97006
2018-08-16,3.11,2.88,2.92,3.07,606000.0,2.90385
2018-08-20,3.38,3.1,3.1,3.33,444800.0,3.14978
2018-08-22,3.58,3.43,3.5,3.47,473800.0,3.2822
2018-08-24,3.6,3.43,3.43,3.49,290700.0,3.30112
2018-08-28,3.53,3.42,3.43,3.43,285900.0,3.24437
2018-08-30,3.61,3.35,3.45,3.39,311100.0,3.2393
2018-09-04,3.38,3.26,3.38,3.32,220900.0,3.17241
2018-09-06,3.35,3.18,3.28,3.24,251700.0,3.09597
2018-09-10,3.51,3.24,3.25,3.51,942600.0,3.35396
2018-09-12,3.85,3.5,3.8,3.63,377300.0,3.46863
2018-09-14,3.68,3.51,3.51,3.63,214700.0,3.46863
2018-09-18,3.59,3.37,3.56,3.39,365300.0,3.2393
2018-09-20,3.4,3.25,3.38,3.31,356300.0,3.16286
2018-09-24,3.48,3.31,3.31,3.44,460400.0,3.28708
2018-09-26,3.44,3.33,3.43,3.34,448800.0,3.19152
2018-09-28,3.44,3.27,3.29,3.34,765400.0,3.19152
2018-10-02,3.56,3.45,3.5,3.47,452700.0,3.31574
2018-10-04,3.47,3.28,3.45,3.32,681800.0,3.17241
2018-10-08,3.3,3.16,3.3,3.28,303600.0,3.13419
2018-10-10,3.37,3.16,3.36,3.18,345000.0,3.03863
2018-10-12,3.17,3.05,3.05,3.1,400000.0,2.96219
2018-10-16,3.14,3.0,3.01,3.11,318600.0,2.97175
2018-10-18,3.08,2.95,3.05,3.02,676200.0,2.88575
2018-10-22,3.0,2.55,2.97,2.59,1288400.0,2.47486
2018-10-24,2.44,2.06,2.06,2.34,1109300.0,2.23598
2018-10-26,2.51,2.38,2.4,2.45,370400.0,2.34109
2018-10-30,2.35,2.18,2.28,2.31,537200.0,2.20731
2018-11-01,2.47,2.28,2.33,2.47,244200.0,2.3602
2018-11-05,2.42,2.3,2.36,2.37,210500.0,2.26464
2018-11-07,2.51,2.37,2.4,2.41,118400.0,2.30286
2018-11-09,2.21,2.09,2.21,2.17,167900.0,2.07353
2018-11-13,2.47,2.07,2.1,2.38,508300.0,2.2742
2018-11-15,2.26,2.05,2.05,2.19,88100.0,2.09264
2018-11-19,2.44,2.23,2.32,2.32,357900.0,2.21687
2018-11-21,2.23,2.15,2.16,2.22,123900.0,2.12131
2018-11-26,2.21,2.14,2.14,2.17,263700.0,2.07353
2018-11-28,2.07,1.96,2.03,2.05,185400.0,1.95887
2018-11-30,2.17,2.1,2.13,2.16,138600.0,2.06398
2018-12-04,2.18,2.11,2.18,2.13,138100.0,2.03531
2018-12-07,2.07,1.97,2.03,2.0,161900.0,1.91109
2018-12-11,1.91,1.82,1.85,1.9,114300.0,1.81554
2018-12-13,1.92,1.83,1.89,1.86,146800.0,1.77731
2018-12-17,1.84,1.75,1.79,1.77,336800.0,1.69132
2018-12-19,1.75,1.64,1.71,1.66,182000.0,1.58621
2018-12-21,1.64,1.55,1.61,1.58,257200.0,1.50976
2018-12-26,1.68,1.48,1.52,1.66,144900.0,1.58621
2018-12-28,1.73,1.63,1.68,1.69,117000.0,1.61487
2019-01-02,1.94,1.77,1.86,1.8,271300.0,1.71998
2019-01-04,1.97,1.87,1.92,1.94,171100.0,1.85376
2019-01-08,2.09,1.98,2.09,2.04,74400.0,1.94931
2019-01-10,2.06,2.0,2.06,2.03,45600.0,1.93976
2019-01-14,1.99,1.91,1.96,1.94,60700.0,1.85376
2019-01-16,2.0,1.93,1.96,1.94,82000.0,1.85376
2019-01-18,1.94,1.84,1.94,1.89,166500.0,1.80598
2019-01-23,1.84,1.75,1.76,1.75,95100.0,1.6722
2019-01-25,1.88,1.77,1.82,1.86,42600.0,1.77731
2019-01-29,1.82,1.67,1.8,1.73,257800.0,1.65309
2019-01-31,1.9,1.78,1.85,1.81,88300.0,1.72954
2019-02-04,1.95,1.86,1.93,1.93,29100.0,1.8442
2019-02-06,1.96,1.88,1.91,1.93,42400.0,1.8442
2019-02-08,1.91,1.8,1.86,1.84,63300.0,1.7582
2019-02-12,1.92,1.85,1.88,1.91,40900.0,1.82509
2019-02-14,2.05,1.96,1.96,2.01,94400.0,1.92065
2019-02-19,2.18,2.06,2.09,2.12,204800.0,2.02576
2019-02-21,2.08,2.0,2.0,2.02,95500.0,1.9302
2019-02-25,2.09,2.02,2.07,2.04,52100.0,1.94931
2019-02-27,2.04,2.0,2.0,2.02,26100.0,1.9302
2019-03-01,2.05,1.96,2.0,1.98,102700.0,1.89198
2019-03-05,2.14,2.0,2.0,2.06,63600.0,1.96842
2019-03-07,2.07,1.99,2.01,2.04,44900.0,1.94931
2019-03-11,2.13,2.03,2.03,2.07,59500.0,1.97798
2019-03-13,2.16,2.06,2.11,2.08,93900.0,1.98753
2019-03-15,2.11,2.01,2.08,2.03,202000.0,1.93976
2019-03-19,2.19,2.13,2.17,2.14,71000.0,2.04487
2019-03-21,2.16,2.09,2.13,2.09,124400.0,1.99709
2019-03-25,1.98,1.82,1.98,1.86,337700.0,1.77731
2019-03-27,1.86,1.75,1.76,1.84,85600.0,1.7582
2019-03-29,1.95,1.86,1.87,1.89,83000.0,1.841
2019-04-02,1.9,1.85,1.85,1.86,108300.0,1.81178
2019-04-04,1.83,1.77,1.81,1.79,53700.0,1.74359
2019-04-08,1.91,1.85,1.85,1.88,98800.0,1.83126
2019-04-10,1.95,1.86,1.86,1.89,112900.0,1.841
2019-04-12,1.95,1.87,1.93,1.88,149700.0,1.83126
2019-04-16,1.89,1.84,1.86,1.86,68000.0,1.81178
2019-04-18,1.88,1.85,1.85,1.88,76700.0,1.83126
2019-04-23,2.01,1.89,1.96,1.89,328000.0,1.841
2019-04-25,1.95,1.9,1.92,1.93,68200.0,1.87996
2019-04-29,1.95,1.87,1.9,1.95,51500.0,1.89944
2019-05-01,1.96,1.91,1.96,1.92,42400.0,1.87022
2019-05-03,1.9,1.84,1.9,1.88,164500.0,1.83126
2019-05-07,1.86,1.79,1.83,1.84,97000.0,1.7923
2019-05-09,1.83,1.79,1.83,1.81,34000.0,1.76307
2019-05-13,1.8,1.75,1.79,1.77,79300.0,1.72411
2019-05-15,1.78,1.74,1.75,1.75,205600.0,1.70463
2019-05-17,1.76,1.73,1.74,1.73,40100.0,1.68515
2019-05-21,1.72,1.66,1.68,1.67,117400.0,1.6267
2019-05-23,1.6,1.5,1.6,1.52,143700.0,1.48059
2019-05-28,1.56,1.5,1.51,1.51,123000.0,1.47085
2019-05-30,1.55,1.5,1.53,1.5,94500.0,1.46111
2019-06-03,1.57,1.5,1.5,1.53,106200.0,1.49033
2019-06-05,1.54,1.5,1.54,1.53,103800.0,1.49033
2019-06-07,1.55,1.51,1.51,1.55,81600.0,1.50981
2019-06-11,1.5,1.45,1.49,1.47,138200.0,1.43189
2019-06-13,1.48,1.44,1.44,1.46,39900.0,1.42215
2019-06-17,1.43,1.38,1.41,1.41,57100.0,1.37344
2019-06-19,1.48,1.39,1.48,1.4,164500.0,1.3637
2019-06-21,1.44,1.41,1.41,1.41,340600.0,1.37344
2019-06-25,1.42,1.38,1.39,1.4,213000.0,1.3637
2019-06-27,1.42,1.39,1.39,1.42,54300.0,1.38319
2019-07-01,1.44,1.39,1.39,1.4,49200.0,1.3637
2019-07-03,1.37,1.36,1.37,1.36,33300.0,1.32474
2019-07-08,1.4,1.34,1.35,1.35,268800.0,1.315
2019-07-10,1.46,1.38,1.38,1.45,426000.0,1.41241
2019-07-12,1.48,1.45,1.47,1.47,100800.0,1.43189
2019-07-16,1.49,1.46,1.48,1.46,62800.0,1.42215
2019-07-18,1.45,1.43,1.44,1.43,100100.0,1.39293
2019-07-22,1.47,1.41,1.46,1.43,132800.0,1.39293
2019-07-24,1.48,1.45,1.45,1.45,43500.0,1.41241
2019-07-26,1.41,1.36,1.41,1.38,89300.0,1.34422
2019-07-30,1.49,1.36,1.39,1.48,180000.0,1.44163
2019-08-01,1.59,1.5,1.55,1.53,174100.0,1.49033
2019-08-05,1.48,1.4,1.44,1.46,111000.0,1.42215
2019-08-07,1.46,1.38,1.42,1.44,104800.0,1.40267
2019-08-09,1.48,1.42,1.45,1.43,40800.0,1.39293
2019-08-13,1.55,1.46,1.47,1.52,216100.0,1.48059
2019-08-15,1.45,1.4,1.45,1.44,149100.0,1.40267
2019-08-19,1.49,1.42,1.47,1.45,143000.0,1.41241
2019-08-21,1.47,1.42,1.42,1.44,28400.0,1.40267
2019-08-23,1.43,1.34,1.43,1.35,177600.0,1.315
2019-08-27,1.36,1.3,1.34,1.33,94900.0,1.29552
2019-08-29,1.36,1.31,1.33,1.35,139200.0,1.35
2019-09-03,1.33,1.29,1.33,1.33,85900.0,1.33
2019-09-05,1.37,1.32,1.36,1.37,68900.0,1.37
2019-09-09,1.46,1.41,1.41,1.45,130400.0,1.45
2019-09-11,1.53,1.46,1.5,1.48,152800.0,1.48
2019-09-13,1.46,1.38,1.44,1.41,191600.0,1.41
2019-09-17,1.52,1.43,1.51,1.46,138700.0,1.46
2019-09-19,1.49,1.44,1.44,1.47,76600.0,1.47
2019-09-23,1.48,1.38,1.38,1.41,212300.0,1.41
2019-09-25,1.4,1.36,1.38,1.37,92500.0,1.37
2019-09-27,1.36,1.32,1.35,1.33,168800.0,1.33
2019-10-01,1.35,1.3,1.32,1.32,213100.0,1.32
2019-10-03,1.28,1.26,1.28,1.28,131100.0,1.28
2019-10-07,1.33,1.31,1.31,1.32,33300.0,1.32
2019-10-09,1.34,1.28,1.31,1.3,99800.0,1.3
2019-10-11,1.33,1.26,1.28,1.29,287800.0,1.29
2019-10-15,1.33,1.28,1.29,1.29,74000.0,1.29
2019-10-17,1.27,1.25,1.27,1.27,112500.0,1.27
2019-10-21,1.27,1.24,1.25,1.25,48300.0,1.25
2019-10-23,1.27,1.22,1.24,1.23,134100.0,1.23
2019-10-25,1.26,1.2,1.22,1.21,169900.0,1.21
2019-10-29,1.21,1.17,1.19,1.19,226400.0,1.19
2019-10-31,1.17,1.15,1.17,1.16,81300.0,1.16
2019-11-04,1.24,1.18,1.19,1.24,285600.0,1.24
2019-11-06,1.27,1.21,1.27,1.23,56700.0,1.23
2019-11-08,1.24,1.2,1.23,1.23,72400.0,1.23
2019-11-12,1.22,1.18,1.22,1.18,150100.0,1.18
2019-11-14,1.21,1.16,1.17,1.17,41000.0,1.17
2019-11-18,1.19,1.12,1.19,1.13,303300.0,1.13
2019-11-20,1.16,1.09,1.11,1.14,238200.0,1.14
2019-11-22,1.17,1.13,1.15,1.14,103600.0,1.14
2019-11-26,1.17,1.13,1.15,1.16,118700.0,1.16
2019-11-29,1.15,1.12,1.14,1.13,278100.0,1.13
2019-12-03,1.13,1.12,1.13,1.13,27800.0,1.13
2019-12-05,1.17,1.13,1.15,1.14,171700.0,1.14
2019-12-09,1.21,1.18,1.2,1.18,245400.0,1.18
2019-12-11,1.19,1.17,1.18,1.19,72200.0,1.19
2019-12-13,1.3,1.23,1.23,1.27,183100.0,1.27
2019-12-17,1.31,1.24,1.28,1.25,239400.0,1.25
2019-12-19,1.39,1.32,1.35,1.39,338000.0,1.39
2019-12-23,1.53,1.47,1.47,1.48,245300.0,1.48
2019-12-26,1.48,1.4,1.45,1.44,108800.0,1.44
2019-12-30,1.49,1.43,1.44,1.48,183700.0,1.48
2020-01-02,1.48,1.37,1.4,1.46,125700.0,1.46
2020-01-06,1.46,1.4,1.46,1.42,212800.0,1.42
2020-01-08,1.43,1.33,1.4,1.34,203800.0,1.34
2020-01-10,1.42,1.35,1.4,1.41,101700.0,1.41
2020-01-14,1.44,1.38,1.42,1.38,106100.0,1.38
2020-01-16,1.39,1.34,1.34,1.38,72800.0,1.38
2020-01-21,1.41,1.32,1.41,1.34,116700.0,1.34
2020-01-23,1.36,1.29,1.36,1.31,174300.0,1.31
2020-01-27,1.26,1.2,1.26,1.22,188400.0,1.22
2020-01-29,1.27,1.23,1.27,1.24,36800.0,1.24
2020-01-31,1.29,1.21,1.29,1.28,115300.0,1.28
2020-02-04,1.3,1.26,1.26,1.29,36400.0,1.29
2020-02-06,1.31,1.24,1.28,1.3,38500.0,1.3
2020-02-10,1.3,1.23,1.3,1.25,56800.0,1.25
2020-02-12,1.3,1.21,1.24,1.24,151100.0,1.24
2020-02-14,1.26,1.19,1.26,1.2,370100.0,1.2
2020-02-19,1.24,1.19,1.24,1.22,144900.0,1.22
2020-02-21,1.24,1.2,1.2,1.22,38900.0,1.22
2020-02-25,1.23,1.16,1.21,1.18,165500.0,1.18
2020-02-27,1.14,1.02,1.13,1.08,409700.0,1.08
2020-03-02,1.12,1.07,1.09,1.1,69200.0,1.1
2020-03-04,1.12,1.08,1.11,1.09,47100.0,1.09
2020-03-06,1.07,0.95,1.06,0.97,379800.0,0.97
2020-03-10,0.83,0.68,0.75,0.79,188500.0,0.79
2020-03-12,0.6,0.49,0.5,0.56,446400.0,0.56
2020-03-16,0.52,0.36,0.36,0.51,190200.0,0.51
2020-03-18,0.43,0.34,0.42,0.39,290400.0,0.39
2020-03-20,0.4,0.34,0.4,0.38,329400.0,0.38
2020-03-24,0.45,0.38,0.4,0.42,160900.0,0.42
2020-03-26,0.53,0.4,0.5,0.4,332000.0,0.4
2020-03-30,0.41,0.35,0.41,0.36,196800.0,0.36
2020-04-01,0.41,0.3,0.4,0.34,361000.0,0.34
2020-04-03,0.48,0.36,0.39,0.4,380600.0,0.4
2020-04-07,0.44,0.39,0.41,0.4,130300.0,0.4
2020-04-09,0.51,0.45,0.46,0.48,214800.0,0.48
2020-04-14,0.47,0.42,0.43,0.44,125000.0,0.44
2020-04-16,0.47,0.38,0.43,0.41,84700.0,0.41
2020-04-20,0.46,0.4,0.44,0.43,96300.0,0.43
2020-04-22,0.45,0.4,0.44,0.43,80300.0,0.43
2020-04-24,0.51,0.45,0.46,0.45,128600.0,0.45
2020-04-28,0.47,0.43,0.45,0.47,81500.0,0.47
2020-04-30,0.67,0.58,0.6,0.62,321600.0,0.62
2020-05-04,0.65,0.53,0.57,0.55,134100.0,0.55
2020-05-06,0.6,0.51,0.59,0.53,74000.0,0.53
2020-05-08,0.55,0.51,0.54,0.55,114800.0,0.55
2020-05-12,0.52,0.47,0.5,0.49,164900.0,0.49
2020-05-14,0.48,0.45,0.47,0.47,61000.0,0.47
2020-05-18,0.53,0.51,0.52,0.52,121100.0,0.52
2020-05-20,0.54,0.5,0.53,0.54,177200.0,0.54
2020-05-22,0.57,0.53,0.54,0.54,69000.0,0.54
2020-05-27,0.57,0.52,0.56,0.54,88800.0,0.54
2020-05-29,0.53,0.5,0.52,0.53,142600.0,0.53
2020-06-02,0.54,0.49,0.5,0.52,306700.0,0.52
2020-06-04,0.61,0.52,0.55,0.59,279900.0,0.59
2020-06-08,0.75,0.66,0.7,0.71,521100.0,0.71
2020-06-10,0.69,0.59,0.69,0.63,271600.0,0.63
2020-06-12,0.62,0.58,0.61,0.6,153700.0,0.6
2020-06-16,0.65,0.55,0.57,0.58,132400.0,0.58
2020-06-18,0.59,0.55,0.57,0.57,62300.0,0.57
2020-06-22,0.59,0.53,0.55,0.58,154800.0,0.58
2020-06-24,0.61,0.54,0.54,0.58,87100.0,0.58
2020-06-26,0.58,0.54,0.55,0.56,84700.0,0.56
2020-06-30,0.61,0.53,0.54,0.57,160500.0,0.57
2020-07-02,0.62,0.58,0.59,0.6,114900.0,0.6
2020-07-07,0.66,0.58,0.66,0.6,173700.0,0.6
2020-07-09,0.65,0.58,0.6,0.6,123100.0,0.6
2020-07-13,0.61,0.59,0.59,0.6,92400.0,0.6
2020-07-15,0.61,0.58,0.61,0.59,67200.0,0.59
2020-07-17,0.6,0.56,0.6,0.58,111200.0,0.58
2020-07-21,0.6,0.56,0.6,0.57,214600.0,0.57
2020-07-23,0.64,0.58,0.62,0.6,172300.0,0.6
2020-07-27,0.6,0.57,0.6,0.58,186100.0,0.58
2020-07-29,0.6,0.58,0.59,0.59,113800.0,0.59
2020-07-31,0.6,0.57,0.57,0.58,91000.0,0.58
2020-08-04,0.62,0.56,0.58,0.6,330400.0,0.6
2020-08-06,0.61,0.6,0.61,0.61,116400.0,0.61
2020-08-10,0.64,0.57,0.6,0.62,122400.0,0.62
2020-08-12,0.61,0.58,0.61,0.6,259700.0,0.6
2020-08-14,0.6,0.58,0.6,0.59,82300.0,0.59
2020-08-18,0.61,0.59,0.6,0.6,41500.0,0.6
2020-08-20,0.59,0.54,0.59,0.57,134600.0,0.57
2020-08-24,0.57,0.52,0.56,0.52,140500.0,0.52
2020-08-26,0.58,0.53,0.58,0.55,241200.0,0.55
2020-08-28,0.56,0.53,0.54,0.55,72800.0,0.55
2020-09-01,0.55,0.53,0.55,0.54,117600.0,0.54
2020-09-03,0.54,0.51,0.53,0.51,129400.0,0.51
2020-09-08,0.5,0.45,0.5,0.48,252900.0,0.48
2020-09-10,0.47,0.45,0.46,0.45,159400.0,0.45
2020-09-14,0.47,0.44,0.45,0.46,96700.0,0.46
2020-09-16,0.5,0.44,0.46,0.45,110200.0,0.45
2020-09-18,0.45,0.4,0.45,0.42,385600.0,0.42
2020-09-22,0.42,0.39,0.42,0.4,162600.0,0.4
2020-09-24,0.41,0.39,0.41,0.4,98700.0,0.4
2020-09-28,0.41,0.38,0.4,0.38,120600.0,0.38
2020-09-30,0.42,0.38,0.38,0.41,187300.0,0.41
2020-10-02,0.4,0.38,0.38,0.4,158900.0,0.4
2020-10-06,0.42,0.39,0.4,0.4,248000.0,0.4
2020-10-08,0.58,0.4,0.42,0.52,1294100.0,0.52
2020-10-12,0.48,0.43,0.48,0.45,159800.0,0.45
2020-10-14,0.45,0.41,0.43,0.44,173700.0,0.44
2020-10-16,0.46,0.44,0.45,0.45,151800.0,0.45
2020-10-20,0.47,0.44,0.47,0.44,67200.0,0.44
2020-10-22,0.53,0.41,0.45,0.45,3116300.0,0.45
2020-10-26,0.42,0.39,0.42,0.4,320500.0,0.4
2020-10-28,0.4,0.38,0.39,0.39,128100.0,0.39
2020-10-30,0.4,0.37,0.39,0.39,161800.0,0.39
2020-11-03,0.43,0.39,0.39,0.42,83200.0,0.42
2020-11-05,0.43,0.39,0.41,0.42,149500.0,0.42
2020-11-09,0.46,0.39,0.43,0.42,1091500.0,0.42
2020-11-11,0.44,0.42,0.44,0.44,445300.0,0.44
2020-11-13,0.44,0.41,0.43,0.43,154200.0,0.43
2020-11-17,0.44,0.41,0.43,0.42,304700.0,0.42
2020-11-19,0.46,0.45,0.45,0.46,268400.0,0.46
2020-11-23,0.48,0.45,0.47,0.48,206800.0,0.48
2020-11-25,0.53,0.5,0.5,0.53,737000.0,0.53
2020-11-30,0.53,0.5,0.51,0.51,175800.0,0.51
2020-12-02,0.55,0.49,0.5,0.51,371700.0,0.51
2020-12-04,0.75,0.64,0.64,0.73,2558500.0,0.73
2020-12-08,0.93,0.83,0.84,0.88,1018200.0,0.88
2020-12-10,1.02,0.94,0.94,1.02,817900.0,1.02
2020-12-14,1.05,0.91,0.99,0.93,721100.0,0.93
2020-12-16,0.98,0.92,0.94,0.92,184900.0,0.92
2020-12-18,0.97,0.9,0.97,0.9,511000.0,0.9
2020-12-22,0.9,0.83,0.83,0.88,264200.0,0.88
2020-12-24,1.02,0.94,0.95,1.01,150000.0,1.01
2020-12-29,0.98,0.89,0.98,0.9,181600.0,0.9
2020-12-31,0.98,0.92,0.96,0.96,399800.0,0.96
2021-01-05,0.97,0.88,0.88,0.95,393700.0,0.95
2021-01-07,1.04,0.94,0.99,1.0,314000.0,1.0
2021-01-11,1.21,1.09,1.11,1.11,396800.0,1.11
2021-01-13,1.18,1.09,1.16,1.12,388100.0,1.12
2021-01-15,1.2,1.11,1.2,1.17,449000.0,1.17
2021-01-20,1.18,1.08,1.16,1.13,893900.0,1.13
2021-01-22,1.14,1.09,1.14,1.11,332500.0,1.11
2021-01-26,1.09,0.93,1.06,1.05,305400.0,1.05
2021-01-28,1.26,1.04,1.04,1.07,1005000.0,1.07
2021-02-01,1.11,1.05,1.05,1.1,236400.0,1.1
2021-02-03,1.25,1.11,1.16,1.22,1161100.0,1.22
2021-02-05,1.29,1.22,1.27,1.27,323800.0,1.27