File: data/price/TGA_price.csv
"","date","TGA"
"1","2007-01-03",4.82
"4","2007-01-08",4.86
"7","2007-01-11",4.72
"10","2007-01-17",4.91
"13","2007-01-22",4.86
"16","2007-01-25",4.86
"19","2007-01-30",4.84
"22","2007-02-02",4.8
"25","2007-02-07",4.7
"28","2007-02-12",4.45
"31","2007-02-15",4.42
"34","2007-02-21",4.47
"37","2007-02-26",4.58
"40","2007-03-01",4.36
"43","2007-03-06",4.3
"46","2007-03-09",4.35
"49","2007-03-14",4.17
"52","2007-03-19",3.93
"55","2007-03-22",4.01
"58","2007-03-27",3.98
"61","2007-03-30",3.93
"64","2007-04-04",3.97
"67","2007-04-10",3.82
"70","2007-04-13",3.92
"73","2007-04-18",3.94
"76","2007-04-23",4.11
"79","2007-04-26",4.21
"82","2007-05-01",4.09
"85","2007-05-04",4.03
"88","2007-05-09",4.02
"91","2007-05-14",3.98
"94","2007-05-17",3.89
"97","2007-05-22",3.9
"100","2007-05-25",3.94
"103","2007-05-31",3.87
"106","2007-06-05",4.04
"109","2007-06-08",3.98
"112","2007-06-13",3.94
"115","2007-06-18",3.93
"118","2007-06-21",4.38
"121","2007-06-26",4.18
"124","2007-06-29",4.46
"127","2007-07-05",4.69
"130","2007-07-10",4.83
"133","2007-07-13",5.14
"136","2007-07-18",5.31
"139","2007-07-23",5.3
"142","2007-07-26",4.92
"145","2007-07-31",4.54
"148","2007-08-03",4.32
"151","2007-08-08",3.92
"154","2007-08-13",3.7
"157","2007-08-16",3.7
"160","2007-08-21",3.86
"163","2007-08-24",4.13
"166","2007-08-29",3.96
"169","2007-09-04",4.1
"172","2007-09-07",4.41
"175","2007-09-12",4.49
"178","2007-09-17",4.51
"181","2007-09-20",4.68
"184","2007-09-25",4.6
"187","2007-09-28",5.03
"190","2007-10-03",5.05
"193","2007-10-08",5.02
"196","2007-10-11",4.95
"199","2007-10-16",5.29
"202","2007-10-19",5.52
"205","2007-10-24",5.41
"208","2007-10-29",5.75
"211","2007-11-01",5.73
"214","2007-11-06",5.7
"217","2007-11-09",5.45
"220","2007-11-14",5.27
"223","2007-11-19",5.26
"226","2007-11-23",5.3
"229","2007-11-28",5.26
"232","2007-12-03",5.12
"235","2007-12-06",5.23
"238","2007-12-11",5.34
"241","2007-12-14",5.43
"244","2007-12-19",5.08
"247","2007-12-24",5.13
"250","2007-12-28",5.19
"253","2008-01-03",5.33
"256","2008-01-08",5.05
"259","2008-01-11",5.19
"262","2008-01-16",5.1
"265","2008-01-22",4.68
"268","2008-01-25",4.68
"271","2008-01-30",4.82
"274","2008-02-04",5.19
"277","2008-02-07",4.89
"280","2008-02-12",5.08
"283","2008-02-15",5.26
"286","2008-02-21",5.33
"289","2008-02-26",5.46
"292","2008-02-29",5.56
"295","2008-03-05",5.5
"298","2008-03-10",5.08
"301","2008-03-13",5.07
"304","2008-03-18",4.65
"307","2008-03-24",4.58
"310","2008-03-27",4.91
"313","2008-04-01",4.86
"316","2008-04-04",4.72
"319","2008-04-09",4.65
"322","2008-04-14",4.62
"325","2008-04-17",4.99
"328","2008-04-22",5
"331","2008-04-25",4.83
"334","2008-04-30",4.56
"337","2008-05-05",4.9
"340","2008-05-08",4.79
"343","2008-05-13",4.88
"346","2008-05-16",5
"349","2008-05-21",5.21
"352","2008-05-27",5.03
"355","2008-05-30",5.17
"358","2008-06-04",4.95
"361","2008-06-09",5.06
"364","2008-06-12",5.14
"367","2008-06-17",5.14
"370","2008-06-20",5.12
"373","2008-06-25",5.26
"376","2008-06-30",5.06
"379","2008-07-03",4.85
"382","2008-07-09",4.56
"385","2008-07-14",4.65
"388","2008-07-17",4.37
"391","2008-07-22",4.31
"394","2008-07-25",4.27
"397","2008-07-30",4.25
"400","2008-08-04",3.9
"403","2008-08-07",3.98
"406","2008-08-12",3.82
"409","2008-08-15",3.89
"412","2008-08-20",4.08
"415","2008-08-25",3.91
"418","2008-08-28",3.83
"421","2008-09-03",3.74
"424","2008-09-08",3.7
"427","2008-09-11",3.27
"430","2008-09-16",3.09
"433","2008-09-19",3.29
"436","2008-09-24",2.99
"439","2008-09-29",2.74
"442","2008-10-02",2.67
"445","2008-10-07",2.25
"448","2008-10-10",1.51
"451","2008-10-15",1.8
"454","2008-10-20",2.04
"457","2008-10-23",1.73
"460","2008-10-28",1.61
"463","2008-10-31",2.27
"466","2008-11-05",2.63
"469","2008-11-10",2.43
"472","2008-11-13",2.25
"475","2008-11-18",2.08
"478","2008-11-21",1.72
"481","2008-11-26",2.11
"484","2008-12-02",2.08
"487","2008-12-05",1.92
"490","2008-12-10",2.12
"493","2008-12-15",2.22
"496","2008-12-18",2.44
"499","2008-12-23",2.29
"502","2008-12-29",2.33
"505","2009-01-02",2.6
"508","2009-01-07",2.5
"511","2009-01-12",2.38
"514","2009-01-15",2.32
"517","2009-01-21",2.37
"520","2009-01-26",3.13
"523","2009-01-29",2.93
"526","2009-02-03",3.04
"529","2009-02-06",2.82
"532","2009-02-11",2.68
"535","2009-02-17",2.64
"538","2009-02-20",2.46
"541","2009-02-25",2.58
"544","2009-03-02",2.38
"547","2009-03-05",2.5
"550","2009-03-10",2.71
"553","2009-03-13",2.71
"556","2009-03-18",2.72
"559","2009-03-23",2.86
"562","2009-03-26",2.89
"565","2009-03-31",2.78
"568","2009-04-03",2.58
"571","2009-04-08",2.36
"574","2009-04-14",2.42
"577","2009-04-17",2.5
"580","2009-04-22",2.44
"583","2009-04-27",2.45
"586","2009-04-30",2.56
"589","2009-05-05",2.76
"592","2009-05-08",2.83
"595","2009-05-13",2.62
"598","2009-05-18",2.6
"601","2009-05-21",2.57
"604","2009-05-27",2.56
"607","2009-06-01",2.72
"610","2009-06-04",2.82
"613","2009-06-09",2.77
"616","2009-06-12",2.86
"619","2009-06-17",2.68
"622","2009-06-22",2.66
"625","2009-06-25",2.66
"628","2009-06-30",2.67
"631","2009-07-06",2.49
"634","2009-07-09",2.3
"637","2009-07-14",2.48
"640","2009-07-17",2.83
"643","2009-07-22",2.95
"646","2009-07-27",3.01
"649","2009-07-30",3.11
"652","2009-08-04",3.22
"655","2009-08-07",3.1
"658","2009-08-12",3.11
"661","2009-08-17",3.07
"664","2009-08-20",3.14
"667","2009-08-25",3.23
"670","2009-08-28",3.18
"673","2009-09-02",3.1
"676","2009-09-08",3.37
"679","2009-09-11",3.36
"682","2009-09-16",3.56
"685","2009-09-21",3.64
"688","2009-09-24",3.44
"691","2009-09-29",3.49
"694","2009-10-02",3.64
"697","2009-10-07",3.81
"700","2009-10-12",4.02
"703","2009-10-15",4.46
"706","2009-10-20",4.44
"709","2009-10-23",4.43
"712","2009-10-28",3.88
"715","2009-11-02",3.73
"718","2009-11-05",3.87
"721","2009-11-10",3.57
"724","2009-11-13",3.71
"727","2009-11-18",3.52
"730","2009-11-23",3.6
"733","2009-11-27",3.66
"736","2009-12-02",3.61
"739","2009-12-07",3.52
"742","2009-12-10",3.44
"745","2009-12-15",3.49
"748","2009-12-18",3.45
"751","2009-12-23",3.51
"754","2009-12-29",3.33
"757","2010-01-04",3.44
"760","2010-01-07",3.73
"763","2010-01-12",3.63
"766","2010-01-15",3.63
"769","2010-01-21",3.47
"772","2010-01-26",3.55
"775","2010-01-29",3.55
"778","2010-02-03",3.85
"781","2010-02-08",3.7
"784","2010-02-11",3.83
"787","2010-02-17",3.92
"790","2010-02-22",4.04
"793","2010-02-25",3.84
"796","2010-03-02",3.85
"799","2010-03-05",3.92
"802","2010-03-10",4.58
"805","2010-03-15",4.51
"808","2010-03-18",4.57
"811","2010-03-23",4.72
"814","2010-03-26",5.37
"817","2010-03-31",5.8
"820","2010-04-06",6.36
"823","2010-04-09",6.37
"826","2010-04-14",6.67
"829","2010-04-19",6.84
"832","2010-04-22",7.31
"835","2010-04-27",6.91
"838","2010-04-30",7.47
"841","2010-05-05",7.2
"844","2010-05-10",7.21
"847","2010-05-13",7.44
"850","2010-05-18",7.28
"853","2010-05-21",6.79
"856","2010-05-26",6.58
"859","2010-06-01",7.11
"862","2010-06-04",7.41
"865","2010-06-09",7.52
"868","2010-06-14",7.9
"871","2010-06-17",7.78
"874","2010-06-22",7.79
"877","2010-06-25",7.65
"880","2010-06-30",7.32
"883","2010-07-06",7.06
"886","2010-07-09",7.62
"889","2010-07-14",7.53
"892","2010-07-19",6.94
"895","2010-07-22",7.31
"898","2010-07-27",7.39
"901","2010-07-30",7.54
"904","2010-08-04",7.68
"907","2010-08-09",7.74
"910","2010-08-12",7.47
"913","2010-08-17",7.75
"916","2010-08-20",7.53
"919","2010-08-25",7.4
"922","2010-08-30",7.34
"925","2010-09-02",7.4
"928","2010-09-08",7.34
"931","2010-09-13",7.91
"934","2010-09-16",7.71
"937","2010-09-21",8.84
"940","2010-09-24",9.24
"943","2010-09-29",9.16
"946","2010-10-04",9.58
"949","2010-10-07",9.4
"952","2010-10-12",9.85
"955","2010-10-15",10.47
"958","2010-10-20",10.53
"961","2010-10-25",10.53
"964","2010-10-28",10.44
"967","2010-11-02",11.39
"970","2010-11-05",14.63
"973","2010-11-10",15.2
"976","2010-11-15",15.32
"979","2010-11-18",14.82
"982","2010-11-23",15.45
"985","2010-11-29",16.73
"988","2010-12-02",17.99
"991","2010-12-07",18.16
"994","2010-12-10",17.44
"997","2010-12-15",14.09
"1000","2010-12-20",15.13
"1003","2010-12-23",16.46
"1006","2010-12-29",16.13
"1009","2011-01-03",15.94
"1012","2011-01-06",15.61
"1015","2011-01-11",15.28
"1018","2011-01-14",15.18
"1021","2011-01-20",14.47
"1024","2011-01-25",14.04
"1027","2011-01-28",13.31
"1030","2011-02-02",13.33
"1033","2011-02-07",15.17
"1036","2011-02-10",15.67
"1039","2011-02-15",14.88
"1042","2011-02-18",14.8
"1045","2011-02-24",13.76
"1048","2011-03-01",14.32
"1051","2011-03-04",14.92
"1054","2011-03-09",14.45
"1057","2011-03-14",13.48
"1060","2011-03-17",13.45
"1063","2011-03-22",13.89
"1066","2011-03-25",13.89
"1069","2011-03-30",15.2
"1072","2011-04-04",15.35
"1075","2011-04-07",15.34
"1078","2011-04-12",14.27
"1081","2011-04-15",14.14
"1084","2011-04-20",13.76
"1087","2011-04-26",14.19
"1090","2011-04-29",14.6
"1093","2011-05-04",13.03
"1096","2011-05-09",13.6
"1099","2011-05-12",13.51
"1102","2011-05-17",12.51
"1105","2011-05-20",13.5
"1108","2011-05-25",13.53
"1111","2011-05-31",15.6
"1114","2011-06-03",14.17
"1117","2011-06-08",13.11
"1120","2011-06-13",12.54
"1123","2011-06-16",11.85
"1126","2011-06-21",11.75
"1129","2011-06-24",10.89
"1132","2011-06-29",11.2
"1135","2011-07-05",12.41
"1138","2011-07-08",12.53
"1141","2011-07-13",11.96
"1144","2011-07-18",11.79
"1147","2011-07-21",12.13
"1150","2011-07-26",11.71
"1153","2011-07-29",10.71
"1156","2011-08-03",9.92
"1159","2011-08-08",8.27
"1162","2011-08-11",9.45
"1165","2011-08-16",9.45
"1168","2011-08-19",8.7
"1171","2011-08-24",9.12
"1174","2011-08-29",9.63
"1177","2011-09-01",9.62
"1180","2011-09-07",10.03
"1183","2011-09-12",9.2
"1186","2011-09-15",9.88
"1189","2011-09-20",9.79
"1192","2011-09-23",8.56
"1195","2011-09-28",8.82
"1198","2011-10-03",7.55
"1201","2011-10-06",8.56
"1204","2011-10-11",8.91
"1207","2011-10-14",9.1
"1210","2011-10-19",9.29
"1213","2011-10-24",10
"1216","2011-10-27",10.68
"1219","2011-11-01",9.71
"1222","2011-11-04",10.2
"1225","2011-11-09",9.53
"1228","2011-11-14",9.53
"1231","2011-11-17",8.8
"1234","2011-11-22",7.65
"1237","2011-11-28",7.92
"1240","2011-12-01",7.92
"1243","2011-12-06",8.18
"1246","2011-12-09",7.69
"1249","2011-12-14",6.89
"1252","2011-12-19",7.19
"1255","2011-12-22",8.05
"1258","2011-12-28",7.77
"1261","2012-01-03",8.25
"1264","2012-01-06",8.87
"1267","2012-01-11",8.98
"1270","2012-01-17",8.93
"1273","2012-01-20",9.35
"1276","2012-01-25",9.49
"1279","2012-01-30",9.53
"1282","2012-02-02",10.05
"1285","2012-02-07",10.33
"1288","2012-02-10",10.24
"1291","2012-02-15",10.22
"1294","2012-02-21",10.79
"1297","2012-02-24",11.16
"1300","2012-02-29",11.58
"1303","2012-03-05",11.4
"1306","2012-03-08",11.76
"1309","2012-03-13",12.15
"1312","2012-03-16",12.06
"1315","2012-03-21",11.72
"1318","2012-03-26",12.4
"1321","2012-03-29",12.05
"1324","2012-04-03",12.61
"1327","2012-04-09",12.43
"1330","2012-04-12",13.86
"1333","2012-04-17",12.86
"1336","2012-04-20",13.19
"1339","2012-04-25",13.48
"1342","2012-04-30",13.75
"1345","2012-05-03",13.52
"1348","2012-05-08",11.98
"1351","2012-05-11",12.28
"1354","2012-05-16",10.31
"1357","2012-05-21",10.53
"1360","2012-05-24",10.37
"1363","2012-05-30",9.94
"1366","2012-06-04",9.49
"1369","2012-06-07",9.75
"1372","2012-06-12",10.08
"1375","2012-06-15",9.63
"1378","2012-06-20",9.08
"1381","2012-06-25",8.12
"1384","2012-06-28",8.43
"1387","2012-07-03",9.67
"1390","2012-07-09",8.83
"1393","2012-07-12",8.54
"1396","2012-07-17",9.13
"1399","2012-07-20",8.81
"1402","2012-07-25",8.69
"1405","2012-07-30",9.84
"1408","2012-08-02",8.89
"1411","2012-08-07",9.79
"1414","2012-08-10",9.52
"1417","2012-08-15",9.47
"1420","2012-08-20",10.41
"1423","2012-08-23",10.54
"1426","2012-08-28",10.29
"1429","2012-08-31",10.23
"1432","2012-09-06",11.5
"1435","2012-09-11",11.51
"1438","2012-09-14",11.55
"1441","2012-09-19",11.78
"1444","2012-09-24",11.07
"1447","2012-09-27",10.58
"1450","2012-10-02",11.08
"1453","2012-10-05",11.17
"1456","2012-10-10",11.16
"1459","2012-10-15",11.14
"1462","2012-10-18",11.61
"1465","2012-10-23",11.14
"1468","2012-10-26",10.72
"1471","2012-11-02",12.15
"1474","2012-11-07",11.8
"1477","2012-11-12",11.63
"1480","2012-11-15",10.58
"1483","2012-11-20",11.04
"1486","2012-11-26",10.49
"1489","2012-11-29",10.37
"1492","2012-12-04",10.31
"1495","2012-12-07",9.55
"1498","2012-12-12",9.98
"1501","2012-12-17",9.7
"1504","2012-12-20",9.76
"1507","2012-12-26",9.37
"1510","2012-12-31",9.39
"1513","2013-01-04",9.35
"1516","2013-01-09",9.02
"1519","2013-01-14",8.6
"1522","2013-01-17",8.79
"1525","2013-01-23",8.67
"1528","2013-01-28",8.46
"1531","2013-01-31",8.56
"1534","2013-02-05",8.69
"1537","2013-02-08",9.16
"1540","2013-02-13",8.66
"1543","2013-02-19",8.09
"1546","2013-02-22",7.87
"1549","2013-02-27",7.93
"1552","2013-03-04",7.94
"1555","2013-03-07",8.86
"1558","2013-03-12",9
"1561","2013-03-15",9.28
"1564","2013-03-20",8.9
"1567","2013-03-25",8.59
"1570","2013-03-28",8.56
"1573","2013-04-03",7.82
"1576","2013-04-08",7.59
"1579","2013-04-11",8.01
"1582","2013-04-16",7.37
"1585","2013-04-19",7.15
"1588","2013-04-24",7.74
"1591","2013-04-29",8.06
"1594","2013-05-02",7.88
"1597","2013-05-07",8.07
"1600","2013-05-10",8.21
"1603","2013-05-15",7.55
"1606","2013-05-20",7.85
"1609","2013-05-23",7.57
"1612","2013-05-29",7.57
"1615","2013-06-03",7.19
"1618","2013-06-06",7.13
"1621","2013-06-11",7.17
"1624","2013-06-14",7.09
"1627","2013-06-19",7.02
"1630","2013-06-24",5.82
"1633","2013-06-27",6.04
"1636","2013-07-02",6.08
"1639","2013-07-08",5.95
"1642","2013-07-11",6.08
"1645","2013-07-16",6.07
"1648","2013-07-19",6.32
"1651","2013-07-24",6.41
"1654","2013-07-29",6.3
"1657","2013-08-01",6.68
"1660","2013-08-06",6.98
"1663","2013-08-09",6.88
"1666","2013-08-14",6.46
"1669","2013-08-19",6.52
"1672","2013-08-22",6.79
"1675","2013-08-27",6.63
"1678","2013-08-30",6.98
"1681","2013-09-05",7.22
"1684","2013-09-10",7.34
"1687","2013-09-13",7.41
"1690","2013-09-18",7.85
"1693","2013-09-23",7.89
"1696","2013-09-26",7.83
"1699","2013-10-01",8.14
"1702","2013-10-04",9.21
"1705","2013-10-09",8.76
"1708","2013-10-14",9.12
"1711","2013-10-17",9.11
"1714","2013-10-22",9.33
"1717","2013-10-25",9.04
"1720","2013-10-30",9.09
"1723","2013-11-04",9.29
"1726","2013-11-07",8.78
"1729","2013-11-12",8.58
"1732","2013-11-15",8.85
"1735","2013-11-20",8.66
"1738","2013-11-25",8.67
"1741","2013-11-29",8.76
"1744","2013-12-04",9.15
"1747","2013-12-09",8.65
"1750","2013-12-12",8.51
"1753","2013-12-17",8.66
"1756","2013-12-20",8.65
"1759","2013-12-26",8.23
"1762","2013-12-31",8.36
"1765","2014-01-06",8.42
"1768","2014-01-09",7.98
"1771","2014-01-14",8.49
"1774","2014-01-17",8.27
"1777","2014-01-23",8.41
"1780","2014-01-28",7.43
"1783","2014-01-31",7.28
"1786","2014-02-05",7.06
"1789","2014-02-10",6.97
"1792","2014-02-13",7.26
"1795","2014-02-19",7.06
"1798","2014-02-24",7.48
"1801","2014-02-27",7.33
"1804","2014-03-04",7.81
"1807","2014-03-07",7.84
"1810","2014-03-12",7.3
"1813","2014-03-17",7.75
"1816","2014-03-20",7.32
"1819","2014-03-25",7.48
"1822","2014-03-28",7.57
"1825","2014-04-02",7.64
"1828","2014-04-07",7.29
"1831","2014-04-10",7.31
"1834","2014-04-15",7.44
"1837","2014-04-21",7.81
"1840","2014-04-24",7.68
"1843","2014-04-29",7.97
"1846","2014-05-02",7.94
"1849","2014-05-07",7.3
"1852","2014-05-12",6.66
"1855","2014-05-15",6.56
"1858","2014-05-20",6.38
"1861","2014-05-23",6.62
"1864","2014-05-29",6.78
"1867","2014-06-03",7.01
"1870","2014-06-06",7.18
"1873","2014-06-11",7.22
"1876","2014-06-16",7.21
"1879","2014-06-19",7.11
"1882","2014-06-24",7.31
"1885","2014-06-27",7.42
"1888","2014-07-02",7.52
"1891","2014-07-08",7.32
"1894","2014-07-11",6.91
"1897","2014-07-16",6.65
"1900","2014-07-21",6.62
"1903","2014-07-24",6.74
"1906","2014-07-29",6.58
"1909","2014-08-01",6.12
"1912","2014-08-06",6.25
"1915","2014-08-11",6.4
"1918","2014-08-14",6.24
"1921","2014-08-19",6.34
"1924","2014-08-22",6.53
"1927","2014-08-27",6.84
"1930","2014-09-02",6.76
"1933","2014-09-05",6.59
"1936","2014-09-10",6.36
"1939","2014-09-15",6.36
"1942","2014-09-18",6.37
"1945","2014-09-23",6.03
"1948","2014-09-26",5.93
"1951","2014-10-01",5.91
"1954","2014-10-06",5.6
"1957","2014-10-09",5.28
"1960","2014-10-14",4.94
"1963","2014-10-17",4.86
"1966","2014-10-22",4.84
"1969","2014-10-27",4.47
"1972","2014-10-30",4.43
"1975","2014-11-04",3.97
"1978","2014-11-07",4.31
"1981","2014-11-12",4.13
"1984","2014-11-17",3.84
"1987","2014-11-20",3.85
"1990","2014-11-25",3.74
"1993","2014-12-01",3.2
"1996","2014-12-04",3.37
"1999","2014-12-09",3.16
"2002","2014-12-12",2.86
"2005","2014-12-17",3.21
"2008","2014-12-22",3.54
"2011","2014-12-26",3.49
"2014","2014-12-31",4.14
"2017","2015-01-06",3.55
"2020","2015-01-09",3.28
"2023","2015-01-14",2.86
"2026","2015-01-20",2.95
"2029","2015-01-23",2.88
"2032","2015-01-28",2.77
"2035","2015-02-02",3.14
"2038","2015-02-05",3.1
"2041","2015-02-10",3.17
"2044","2015-02-13",3.3
"2047","2015-02-19",3.12
"2050","2015-02-24",2.87
"2053","2015-02-27",2.92
"2056","2015-03-04",3.17
"2059","2015-03-09",2.97
"2062","2015-03-12",2.87
"2065","2015-03-17",2.85
"2068","2015-03-20",3.35
"2071","2015-03-25",3.53
"2074","2015-03-30",3.48
"2077","2015-04-02",3.75
"2080","2015-04-08",3.91
"2083","2015-04-13",4.13
"2086","2015-04-16",4.4
"2089","2015-04-21",4.37
"2092","2015-04-24",4.43
"2095","2015-04-29",4.51
"2098","2015-05-04",4.61
"2101","2015-05-07",4.08
"2104","2015-05-12",4.07
"2107","2015-05-15",4.15
"2110","2015-05-20",4.22
"2113","2015-05-26",4.09
"2116","2015-05-29",4.03
"2119","2015-06-03",4.09
"2122","2015-06-08",4.12
"2125","2015-06-11",4.07
"2128","2015-06-16",4.08
"2131","2015-06-19",3.81
"2134","2015-06-24",4.1
"2137","2015-06-29",3.96
"2140","2015-07-02",3.91
"2143","2015-07-08",3.79
"2146","2015-07-13",3.64
"2149","2015-07-16",3.41
"2152","2015-07-21",3.14
"2155","2015-07-24",2.88
"2158","2015-07-29",2.96
"2161","2015-08-03",2.92
"2164","2015-08-06",3.04
"2167","2015-08-11",2.97
"2170","2015-08-14",2.95
"2173","2015-08-19",2.71
"2176","2015-08-24",2.66
"2179","2015-08-27",3.07
"2182","2015-09-01",3.09
"2185","2015-09-04",2.76
"2188","2015-09-10",2.72
"2191","2015-09-15",2.71
"2194","2015-09-18",2.65
"2197","2015-09-23",2.69
"2200","2015-09-28",2.65
"2203","2015-10-01",2.69
"2206","2015-10-06",2.97
"2209","2015-10-09",3.02
"2212","2015-10-14",2.72
"2215","2015-10-19",2.67
"2218","2015-10-22",2.68
"2221","2015-10-27",2.52
"2224","2015-10-30",2.72
"2227","2015-11-04",2.73
"2230","2015-11-09",2.7
"2233","2015-11-12",2.3
"2236","2015-11-17",2.03
"2239","2015-11-20",2
"2242","2015-11-25",2.13
"2245","2015-12-01",2.15
"2248","2015-12-04",2.02
"2251","2015-12-09",1.73
"2254","2015-12-14",1.66
"2257","2015-12-17",1.64
"2260","2015-12-22",1.76
"2263","2015-12-28",1.67
"2266","2015-12-31",1.8
"2269","2016-01-06",1.7
"2272","2016-01-11",1.42
"2275","2016-01-14",1.33
"2278","2016-01-20",1.07
"2281","2016-01-25",1.17
"2284","2016-01-28",1.43
"2287","2016-02-02",1.22
"2290","2016-02-05",1.24
"2293","2016-02-10",1.23
"2296","2016-02-16",1.24
"2299","2016-02-19",1.38
"2302","2016-02-24",1.35
"2305","2016-02-29",1.44
"2308","2016-03-03",1.63
"2311","2016-03-08",1.72
"2314","2016-03-11",1.72
"2317","2016-03-16",1.66
"2320","2016-03-21",1.7
"2323","2016-03-24",1.67
"2326","2016-03-30",1.69
"2329","2016-04-04",1.68
"2332","2016-04-07",1.69
"2335","2016-04-12",1.81
"2338","2016-04-15",1.76
"2341","2016-04-20",1.93
"2344","2016-04-25",1.92
"2347","2016-04-28",1.98
"2350","2016-05-03",1.9
"2353","2016-05-06",1.94
"2356","2016-05-11",1.94
"2359","2016-05-16",1.94
"2362","2016-05-19",1.81
"2365","2016-05-24",1.7
"2368","2016-05-27",1.71
"2371","2016-06-02",1.68
"2374","2016-06-07",1.78
"2377","2016-06-10",1.76
"2380","2016-06-15",1.64
"2383","2016-06-20",1.66
"2386","2016-06-23",1.97
"2389","2016-06-28",1.86
"2392","2016-07-01",1.87
"2395","2016-07-07",1.74
"2398","2016-07-12",1.8
"2401","2016-07-15",1.77
"2404","2016-07-20",1.71
"2407","2016-07-25",1.62
"2410","2016-07-28",1.63
"2413","2016-08-02",1.61
"2416","2016-08-05",1.59
"2419","2016-08-10",1.61
"2422","2016-08-15",1.95
"2425","2016-08-18",2.1
"2428","2016-08-23",1.96
"2431","2016-08-26",1.83
"2434","2016-08-31",1.85
"2437","2016-09-06",1.94
"2440","2016-09-09",2.16
"2443","2016-09-14",1.89
"2446","2016-09-19",1.98
"2449","2016-09-22",1.92
"2452","2016-09-27",1.77
"2455","2016-09-30",1.97
"2458","2016-10-05",2.04
"2461","2016-10-10",2.12
"2464","2016-10-13",2.13
"2467","2016-10-18",2.07
"2470","2016-10-21",2.03
"2473","2016-10-26",1.86
"2476","2016-10-31",1.82
"2479","2016-11-03",1.82
"2482","2016-11-08",1.8
"2485","2016-11-11",1.78
"2488","2016-11-16",1.78
"2491","2016-11-21",1.83
"2494","2016-11-25",1.79
"2497","2016-11-30",1.75
"2500","2016-12-05",1.81
"2503","2016-12-08",1.73
"2506","2016-12-13",1.83
"2509","2016-12-16",1.73
"2512","2016-12-21",1.72
"2515","2016-12-27",1.72
"2518","2016-12-30",1.69
"2521","2017-01-05",1.84
"2524","2017-01-10",1.78
"2527","2017-01-13",1.78
"2530","2017-01-19",1.72
"2533","2017-01-24",1.75
"2536","2017-01-27",1.75
"2539","2017-02-01",1.72
"2542","2017-02-06",1.69
"2545","2017-02-09",1.64
"2548","2017-02-14",1.79
"2551","2017-02-17",1.74
"2554","2017-02-23",1.67
"2557","2017-02-28",1.63
"2560","2017-03-03",1.62
"2563","2017-03-08",1.59
"2566","2017-03-13",1.59
"2569","2017-03-16",1.54
"2572","2017-03-21",1.52
"2575","2017-03-24",1.5
"2578","2017-03-29",1.62
"2581","2017-04-03",1.57
"2584","2017-04-06",1.6
"2587","2017-04-11",1.62
"2590","2017-04-17",1.53
"2593","2017-04-20",1.53
"2596","2017-04-25",1.52
"2599","2017-04-28",1.46
"2602","2017-05-03",1.44
"2605","2017-05-08",1.47
"2608","2017-05-11",1.51
"2611","2017-05-16",1.62
"2614","2017-05-19",1.6
"2617","2017-05-24",1.58
"2620","2017-05-30",1.44
"2623","2017-06-02",1.44
"2626","2017-06-07",1.39
"2629","2017-06-12",1.33
"2632","2017-06-15",1.22
"2635","2017-06-20",1.31
"2638","2017-06-23",1.32
"2641","2017-06-28",1.29
"2644","2017-07-03",1.32
"2647","2017-07-07",1.29
"2650","2017-07-12",1.3
"2653","2017-07-17",1.34
"2656","2017-07-20",1.35
"2659","2017-07-25",1.35
"2662","2017-07-28",1.38
"2665","2017-08-02",1.32
"2668","2017-08-07",1.25
"2671","2017-08-10",1.25
"2674","2017-08-15",1.18
"2677","2017-08-18",1.19
"2680","2017-08-23",1.24
"2683","2017-08-28",1.25
"2686","2017-08-31",1.34
"2689","2017-09-06",1.28
"2692","2017-09-11",1.21
"2695","2017-09-14",1.24
"2698","2017-09-19",1.15
"2701","2017-09-22",1.26
"2704","2017-09-27",1.36
"2707","2017-10-02",1.42
"2710","2017-10-05",1.48
"2713","2017-10-10",1.56
"2716","2017-10-13",1.6
"2719","2017-10-18",1.59
"2722","2017-10-23",1.57
"2725","2017-10-26",1.55
"2728","2017-10-31",1.68
"2731","2017-11-03",1.48
"2734","2017-11-08",1.52
"2737","2017-11-13",1.5
"2740","2017-11-16",1.45
"2743","2017-11-21",1.48
"2746","2017-11-27",1.47
"2749","2017-11-30",1.45
"2752","2017-12-05",1.43
"2755","2017-12-08",1.34
"2758","2017-12-13",1.33
"2761","2017-12-18",1.28
"2764","2017-12-21",1.33
"2767","2017-12-27",1.39
"2770","2018-01-02",1.46
"2773","2018-01-05",1.44
"2776","2018-01-10",1.45
"2779","2018-01-16",1.46
"2782","2018-01-19",1.48
"2785","2018-01-24",1.46
"2788","2018-01-29",1.48
"2791","2018-02-01",1.46
"2794","2018-02-06",1.4
"2797","2018-02-09",1.27
"2800","2018-02-14",1.33
"2803","2018-02-20",1.33
"2806","2018-02-23",1.32
"2809","2018-02-28",1.3
"2812","2018-03-05",1.29
"2815","2018-03-08",1.28
"2818","2018-03-13",1.34
"2821","2018-03-16",1.33
"2824","2018-03-21",1.41
"2827","2018-03-26",1.39
"2830","2018-03-29",1.34
"2833","2018-04-04",1.32
"2836","2018-04-09",1.27
"2839","2018-04-12",1.36
"2842","2018-04-17",1.4
"2845","2018-04-20",1.61
"2848","2018-04-25",1.63
"2851","2018-04-30",1.8
"2854","2018-05-03",1.93
"2857","2018-05-08",1.99
"2860","2018-05-11",1.91
"2863","2018-05-16",1.96
"2866","2018-05-21",2.64
"2869","2018-05-24",2.31
"2872","2018-05-30",2.49
"2875","2018-06-04",2.41
"2878","2018-06-07",2.45
"2881","2018-06-12",2.39
"2884","2018-06-15",2.24
"2887","2018-06-20",2.36
"2890","2018-06-25",2.4
"2893","2018-06-28",2.72
"2896","2018-07-03",2.87
"2899","2018-07-09",3.29
"2902","2018-07-12",3.76
"2905","2018-07-17",3.53
"2908","2018-07-20",3.43
"2911","2018-07-25",3.37
"2914","2018-07-30",3.13
"2917","2018-08-02",3.16
"2920","2018-08-07",3.19
"2923","2018-08-10",3.19
"2926","2018-08-15",2.93
"2929","2018-08-20",3.33
"2932","2018-08-23",3.42
"2935","2018-08-28",3.43
"2938","2018-08-31",3.36
"2941","2018-09-06",3.24
"2944","2018-09-11",3.74
"2947","2018-09-14",3.63
"2950","2018-09-19",3.39
"2953","2018-09-24",3.44
"2956","2018-09-27",3.3
"2959","2018-10-02",3.47
"2962","2018-10-05",3.32
"2965","2018-10-10",3.18
"2968","2018-10-15",3.02
"2971","2018-10-18",3.02
"2974","2018-10-23",2.03
"2977","2018-10-26",2.45
"2980","2018-10-31",2.31
"2983","2018-11-05",2.37
"2986","2018-11-08",2.22
"2989","2018-11-13",2.38
"2992","2018-11-16",2.25
"2995","2018-11-21",2.22
"2998","2018-11-27",2.01
"3001","2018-11-30",2.16
"3004","2018-12-06",1.96
"3007","2018-12-11",1.9
"3010","2018-12-14",1.78
"3013","2018-12-19",1.66
"3016","2018-12-24",1.52
"3019","2018-12-28",1.69
"3022","2019-01-03",1.89
"3025","2019-01-08",2.04
"3028","2019-01-11",1.98
"3031","2019-01-16",1.94
"3034","2019-01-22",1.76
"3037","2019-01-25",1.86
"3040","2019-01-30",1.83
"3043","2019-02-04",1.93
"3046","2019-02-07",1.87
"3049","2019-02-12",1.91
"3052","2019-02-15",2.09
"3055","2019-02-21",2.02
"3058","2019-02-26",1.98
"3061","2019-03-01",1.98
"3064","2019-03-06",2.04
"3067","2019-03-11",2.07
"3070","2019-03-14",2.08
"3073","2019-03-19",2.14
"3076","2019-03-22",1.98
"3079","2019-03-27",1.84
"3082","2019-04-01",1.86
"3085","2019-04-04",1.79
"3088","2019-04-09",1.86
"3091","2019-04-12",1.88
"3094","2019-04-17",1.86
"3097","2019-04-23",1.89
"3100","2019-04-26",1.9
"3103","2019-05-01",1.92
"3106","2019-05-06",1.87
"3109","2019-05-09",1.81
"3112","2019-05-14",1.76
"3115","2019-05-17",1.73
"3118","2019-05-22",1.6
"3121","2019-05-28",1.51
"3124","2019-05-31",1.5
"3127","2019-06-05",1.53
"3130","2019-06-10",1.49
"3133","2019-06-13",1.46
"3136","2019-06-18",1.45
"3139","2019-06-21",1.41
"3142","2019-06-26",1.42
"3145","2019-07-01",1.4
"3148","2019-07-05",1.35
"3151","2019-07-10",1.45
"3154","2019-07-15",1.48
"3157","2019-07-18",1.43
"3160","2019-07-23",1.45
"3163","2019-07-26",1.38
"3166","2019-07-31",1.55
"3169","2019-08-05",1.46
"3172","2019-08-08",1.44
"3175","2019-08-13",1.52
"3178","2019-08-16",1.47
"3181","2019-08-21",1.44
"3184","2019-08-26",1.33
"3187","2019-08-29",1.35
"3190","2019-09-04",1.35
"3193","2019-09-09",1.45
"3196","2019-09-12",1.43
"3199","2019-09-17",1.46
"3202","2019-09-20",1.43
"3205","2019-09-25",1.37
"3208","2019-09-30",1.33
"3211","2019-10-03",1.28
"3214","2019-10-08",1.31
"3217","2019-10-11",1.29
"3220","2019-10-16",1.26
"3223","2019-10-21",1.25
"3226","2019-10-24",1.23
"3229","2019-10-29",1.19
"3232","2019-11-01",1.17
"3235","2019-11-06",1.23
"3238","2019-11-11",1.22
"3241","2019-11-14",1.17
"3244","2019-11-19",1.12
"3247","2019-11-22",1.14
"3250","2019-11-27",1.14
"3253","2019-12-03",1.13
"3256","2019-12-06",1.19
"3259","2019-12-11",1.19
"3262","2019-12-16",1.28
"3265","2019-12-19",1.39
"3268","2019-12-24",1.45
"3271","2019-12-30",1.48
"3274","2020-01-03",1.45
"3277","2020-01-08",1.34
"3280","2020-01-13",1.43
"3283","2020-01-16",1.38
"3286","2020-01-22",1.36
"3289","2020-01-27",1.22
"3292","2020-01-30",1.3
"3295","2020-02-04",1.29
"3298","2020-02-07",1.28
"3301","2020-02-12",1.24
"3304","2020-02-18",1.2
"3307","2020-02-21",1.22
"3310","2020-02-26",1.14
"3313","2020-03-02",1.1
"3316","2020-03-05",1.08
"3319","2020-03-10",0.79
"3322","2020-03-13",0.48
"3325","2020-03-18",0.39
"3328","2020-03-23",0.39
"3331","2020-03-26",0.4
"3334","2020-03-31",0.36
"3337","2020-04-03",0.4
"3340","2020-04-08",0.45
"3343","2020-04-14",0.44
"3346","2020-04-17",0.44
"3349","2020-04-22",0.43
"3352","2020-04-27",0.47
"3355","2020-04-30",0.62
"3358","2020-05-05",0.56
"3361","2020-05-08",0.55
"3364","2020-05-13",0.49
"3367","2020-05-18",0.52
"3370","2020-05-21",0.57
"3373","2020-05-27",0.54
"3376","2020-06-01",0.52
"3379","2020-06-04",0.59
"3382","2020-06-09",0.69
"3385","2020-06-12",0.6
"3388","2020-06-17",0.58
"3391","2020-06-22",0.58
"3394","2020-06-25",0.56
"3397","2020-06-30",0.57
"3400","2020-07-06",0.62
"3403","2020-07-09",0.6
"3406","2020-07-14",0.59
"3409","2020-07-17",0.58
"3412","2020-07-22",0.61
"3415","2020-07-27",0.58
"3418","2020-07-30",0.57
"3421","2020-08-04",0.6
"3424","2020-08-07",0.6
"3427","2020-08-12",0.6
"3430","2020-08-17",0.6
"3433","2020-08-20",0.57
"3436","2020-08-25",0.55
"3439","2020-08-28",0.55
"3442","2020-09-02",0.53
"3445","2020-09-08",0.48
"3448","2020-09-11",0.45
"3451","2020-09-16",0.45
"3454","2020-09-21",0.41
"3457","2020-09-24",0.4
"3460","2020-09-29",0.41
"3463","2020-10-02",0.4
"3466","2020-10-07",0.41
"3469","2020-10-12",0.45
"3472","2020-10-15",0.46
"3475","2020-10-20",0.44
"3478","2020-10-23",0.42
"3481","2020-10-28",0.39
"3484","2020-11-02",0.39
"3487","2020-11-05",0.42
"3490","2020-11-10",0.43
"3493","2020-11-13",0.43
"3496","2020-11-18",0.45
"3499","2020-11-23",0.48
"3502","2020-11-27",0.53